{
  "resourceType": "Bundle",
  "type": "transaction",
  "entry": [
    {
      "resource": {
        "resourceType": "Patient",
        "id": "0"
      },
      "request": {
        "method": "PUT",
        "url": "Patient/0"
      }
    },
    {
      "resource": {
        "resourceType": "Patient",
        "id": "1"
      },
      "request": {
        "method": "PUT",
        "url": "Patient/1"
      }
    },
    {
      "resource": {
        "resourceType": "Condition",
        "id": "0",
        "code": {
          "coding": [
            {
              "code": "C71.1",
              "system": "http://fhir.de/CodeSystem/dimdi/icd-10-gm"
            }
          ]
        },
        "subject": {
          "reference": "Patient/0"
        }
      },
      "request": {
        "method": "PUT",
        "url": "Condition/0"
      }
    },
    {
      "resource": {
        "resourceType": "Condition",
        "id": "1",
        "code": {
          "coding": [
            {
              "code": "Z88.8",
              "system": "http://hl7.org/fhir/sid/icd-10",
              "version": "2016"
            }
          ]
        },
        "subject": {
          "reference": "Patient/1"
        }
      },
      "request": {
        "method": "PUT",
        "url": "Condition/1"
      }
    }
  ]
}
